Folder: plotpy/debug (part 2)

File: reflectometer_map.UXD
; C:\DIFFDAT1\Zakalek\PdFe-Multilayer\PdFe2-map.raw(Diffrac Plus V1.01 file) converted by XCH V1.0
_FILEVERSION=2
_SAMPLE='Pd/Fe10x5'
_SITE='J lich / Germany'
_USER='Administrator'
_SAMPLE_CHANGER_CODE=0
_ATTACHMENTS_CODE=0
_GONIOMETER_RADIUS=217.5
_FIXED_DIVSLIT=0.150000
_FIXED_SAMPLESLIT=1.000000
_FIXED_DETSLIT=1.000000
_MONOCHROMATOR=0
; None
_THIN_FILM='N'
_BETA_FILTER='N'
_FIXED_ANTISLIT=0.150000
_ANALYZER_CODE=0
; None
_DATEMEASURED='22-Mar-2010 00:06:08'
_WL_UNIT='A'
_WL1=1.540600
_WL2=1.544390
_WL3=1.392220
_WLRATIO=0.500000
_ANODE='Cu'
; (Data for Range number 1)
_DRIVE='COUPLED'
_STEPTIME=30
_STEPSIZE=0.010000
_STEPMODE='S'
_START=0.000000
_THETA=0.000000
_2THETA=0.000000
_KHI=0.000000
_PHI=0.000000
_X=0.000000
_Y=0.000000
_Z=0.000000
_DIVERGENCE=0.000000
_ANTISCATTER=0.000000
_DETECTOR=1
; S.C.
_HV=675.575
_GAIN=80
_LLD=0.700531
_ULD=1.906721
_DETECTORSLIT='unkn'
_AUX1=-0.662540
_AUX2=0.273480
_AUX3=8.000000
_TIMESTARTED=14
_TEMP_RATE=-1.000000
_TEMP_DELAY=-1.000000
_KV=40
_MA=40
_RANGE_WL=1.540600
_3DPLANE=0
_2THETACOUNTS
   0.0000  75042400
   0.0300  44756900
   0.0600  46855200
   0.0900  26334400
   0.1200   9899630
   0.1500   7687830
   0.1800   7431850
   0.2100   7990700
   0.2400   8333020
   0.2700   9094020
   0.3000  10025900
   0.3300  10335400
   0.3600  11425900
   0.3900  11989800
   0.4200  12121700
   0.4500  13159600
   0.4800  13173200
   0.5100  13340400
   0.5400  13992600
   0.5700  13565900
   0.6000  13879700
   0.6300  13982000
   0.6600  13252300
   0.6900  13729900
   0.7200  13210700
   0.7500  12475300
   0.7800  12308900
   0.8100  10882400
   0.8400   9311130
   0.8700   7314590
   0.9000   4413540
   0.9300   2575230
   0.9600   1360530
   0.9900    914984
   1.0200    686622
   1.0500    482301
   1.0800    343620
   1.1100    240518
   1.1400    184375
   1.1700    169997
   1.2000    145567
   1.2300    122295
   1.2600    106212
   1.2900     87486
   1.3200     74983
   1.3500     64920
   1.3800     53883
   1.4100     48516
   1.4400     42293
   1.4700     34466
   1.5000     27047
   1.5300     16240
   1.5600     11407
   1.5900     11307
   1.6200     10580
   1.6500      9770
   1.6800      9369
   1.7100      8061
   1.7400      7581
   1.7700      6899
   1.8000      6185
   1.8300      5980
   1.8600      5373
   1.8900      4866
   1.9200      5091
   1.9500      4893
   1.9800      4861
   2.0100      4622
   2.0400      3196
   2.0700      1879
   2.1000      1413
   2.1300      1365
   2.1600      1272
   2.1900      1257
   2.2200      1282
   2.2500      1205
   2.2800      1047
   2.3100      1079
   2.3400       948
   2.3700       947
   2.4000       925
   2.4300       852
   2.4600       860
   2.4900      1009
   2.5200      1025
   2.5500      1278
   2.5800      1269
   2.6100       970
   2.6400       619
   2.6700       403
   2.7000       334
   2.7300       282
   2.7600       293
   2.7900       370
   2.8200       354
   2.8500       329
   2.8800       391
   2.9100       416
   2.9400       453
   2.9700       431
   3.0000       414
   3.0300       446
   3.0600       426
   3.0900       476
   3.1200       597
   3.1500       697
   3.1800       624
   3.2100       473
   3.2400       289
   3.2700       201
   3.3000       188
   3.3300       178
   3.3600       201
   3.3900       213
   3.4200       205
   3.4500       225
   3.4800       216
   3.5100       220
   3.5400       186
   3.5700       169
   3.6000       183
   3.6300       152
   3.6600       182
   3.6900       252
   3.7200       320
   3.7500       374
   3.7800       362
   3.8100       229
   3.8400       192
   3.8700       139
   3.9000        94
   3.9300       105
   3.9600       134
   3.9900       121
   4.0200       148
   4.0500       148
   4.0800       140
   4.1100       123
   4.1400       107
   4.1700        98
   4.2000       110
   4.2300       134
   4.2600       142
   4.2900       191
   4.3200       226
   4.3500       262
   4.3800       232
   4.4100       186
   4.4400       139
   4.4700       102
   4.5000        91
   4.5300        82
   4.5600       107
   4.5900        94
   4.6200        97
   4.6500        99
   4.6800        77
   4.7100        87
   4.7400        66
   4.7700        84
   4.8000        87
   4.8300        80
   4.8600       118
   4.8900       130
   4.9200       171
   4.9500       182
   4.9800       192
   5.0100       147
   5.0400       127
   5.0700       104
   5.1000        96
   5.1300       112
   5.1600        94
   5.1900        93
   5.2200        87
   5.2500        67
   5.2800        60
   5.3100        55
   5.3400        60
   5.3700        79
   5.4000        70
   5.4300        80
   5.4600        82
   5.4900       101
   5.5200       143
   5.5500       141
   5.5800       136
   5.6100        90
   5.6400        79
   5.6700       101
   5.7000        92
   5.7300        75
   5.7600        70
   5.7900        57
   5.8200        58
   5.8500        41
   5.8800        52
   5.9100        60
   5.9400        65
   5.9700        51
   6.0000        59
; (Data for Range number 2)
_DRIVE='COUPLED'
_STEPTIME=30
_STEPSIZE=0.010000
_STEPMODE='S'
_START=0.000000
_THETA=0.100000
_2THETA=0.000000
_KHI=0.000000
_PHI=0.000000
_X=0.000000
_Y=0.000000
_Z=0.000000
_DIVERGENCE=0.000000
_ANTISCATTER=0.000000
_DETECTOR=1
; S.C.
_HV=675.575
_GAIN=80
_LLD=0.700531
_ULD=1.906721
_DETECTORSLIT='unkn'
_AUX1=-0.662540
_AUX2=0.273480
_AUX3=8.000000
_TIMESTARTED=18169
_TEMP_RATE=-1.000000
_TEMP_DELAY=-1.000000
_KV=40
_MA=40
_RANGE_WL=1.540600
_3DPLANE=0
_2THETACOUNTS
   0.0000  73028000
   0.0300  50325700
   0.0600  41706700
   0.0900  23915000
   0.1200   5670450
   0.1500   2806220
   0.1800   1528070
   0.2100    792209
   0.2400    408554
   0.2700    182540
   0.3000     92126
   0.3300     69390
   0.3600     67066
   0.3900     80735
   0.4200     94232
   0.4500    106788
   0.4800    134730
   0.5100    156281
   0.5400    186601
   0.5700    231568
   0.6000    264449
   0.6300    323596
   0.6600    369155
   0.6900    383782
   0.7200    419335
   0.7500    407121
   0.7800    403144
   0.8100    409645
   0.8400    384793
   0.8700    382734
   0.9000    369699
   0.9300    343968
   0.9600    336785
   0.9900    303247
   1.0200    266405
   1.0500    232460
   1.0800    174977
   1.1100    127249
   1.1400     87057
   1.1700     58007
   1.2000     46112
   1.2300     36489
   1.2600     28755
   1.2900     24617
   1.3200     19840
   1.3500     16827
   1.3800     14682
   1.4100     12357
   1.4400     11178
   1.4700      9409
   1.5000      7844
   1.5300      5935
   1.5600      4103
   1.5900      3538
   1.6200      3381
   1.6500      3138
   1.6800      3049
   1.7100      2672
   1.7400      2403
   1.7700      2319
   1.8000      2091
   1.8300      1999
   1.8600      1983
   1.8900      1843
   1.9200      1832
   1.9500      1775
   1.9800      1796
   2.0100      1733
   2.0400      1331
   2.0700       883
   2.1000       651
   2.1300       581
   2.1600       580
   2.1900       581
   2.2200       521
   2.2500       528
   2.2800       530
   2.3100       513
   2.3400       492
   2.3700       472
   2.4000       457
   2.4300       473
   2.4600       415
   2.4900       465
   2.5200       470
   2.5500       497
   2.5800       607
   2.6100       479
[...]
   1.5600        36
   1.5800        31
   1.6000        48
   1.6200        33
   1.6400        50
   1.6600        43
   1.6800        32
   1.7000        41
   1.7200        38
   1.7400        41
   1.7600        40
   1.7800        32
   1.8000        45
   1.8200        44
   1.8400        34
   1.8600        39
   1.8800        37
   1.9000        38
   1.9200        50
   1.9400        43
   1.9600        45
   1.9800        41
   2.0000        35
   2.0200        40
   2.0400        57
   2.0600        54
   2.0800        47
   2.1000        49
   2.1200        41
   2.1400        38
   2.1600        45
   2.1800        36
   2.2000        51
   2.2200        51
   2.2400        45
   2.2600        44
   2.2800        55
   2.3000        51
   2.3200        44
   2.3400        59
   2.3600        51
   2.3800        52
   2.4000        56
   2.4200        48
   2.4400        57
   2.4600        52
   2.4800        59
   2.5000        65
   2.5200        51
   2.5400        78
   2.5600        70
   2.5800        67
   2.6000        68
   2.6200        64
   2.6400        76
   2.6600        65
   2.6800        82
   2.7000        61
   2.7200        78
   2.7400        62
   2.7600        59
   2.7800        61
   2.8000        60
   2.8200        67
   2.8400        65
   2.8600        47
   2.8800        49
   2.9000        46
   2.9200        63
   2.9400        49
   2.9600        50
   2.9800        53
   3.0000        59
   3.0200        45
   3.0400        50
   3.0600        54
   3.0800        40
   3.1000        58
   3.1200        44
   3.1400        44
   3.1600        34
   3.1800        42
   3.2000        40
   3.2200        33
   3.2400        46
   3.2600        43
   3.2800        34
   3.3000        38
   3.3200        43
   3.3400        31
   3.3600        45
   3.3800        36
   3.4000        49
   3.4200        40
   3.4400        37
   3.4600        31
   3.4800        28
   3.5000        43
   3.5200        46
   3.5400        38
   3.5600        33
   3.5800        36
   3.6000        45
   3.6200        33
   3.6400        41
   3.6600        43
   3.6800        44
   3.7000        33
   3.7200        38
   3.7400        36
   3.7600        48
   3.7800        47
   3.8000        30
   3.8200        41
   3.8400        57
   3.8600        39
   3.8800        34
   3.9000        36
   3.9200        49
   3.9400        33
   3.9600        38
   3.9800        35
   4.0000        36
   4.0200        46
   4.0400        32
   4.0600        39
   4.0800        36
   4.1000        33
   4.1200        40
   4.1400        32
   4.1600        36
   4.1800        41
   4.2000        35
   4.2200        39
   4.2400        35
   4.2600        45
   4.2800        34
   4.3000        38
   4.3200        41
   4.3400        35
   4.3600        38
   4.3800        41
   4.4000        32
   4.4200        37
   4.4400        30
   4.4600        25
   4.4800        28
   4.5000        35
   4.5200        33
   4.5400        35
   4.5600        41
   4.5800        32
   4.6000        39
   4.6200        33
   4.6400        31
   4.6600        38
   4.6800        44
   4.7000        31
   4.7200        33
   4.7400        39
   4.7600        26
   4.7800        33
   4.8000        39
   4.8200        33
   4.8400        30
   4.8600        34
   4.8800        34
   4.9000        40
   4.9200        37
   4.9400        34
   4.9600        35
   4.9800        42
   5.0000        43
   5.0200        33
   5.0400        34
   5.0600        39
   5.0800        42
   5.1000        31
   5.1200        37
   5.1400        35
   5.1600        35
   5.1800        41
   5.2000        22