Folder: plotpy/debug

Note: README.txt
Release Notes for the plotting script collection Version 0.6
             Please report bugs to a.glavic@fz-juelich.de


Content:

0   - introduction
1   - changes since version 0.5
1.1   - changes from version 0.4 to 0.5
2   - installation Linux
2.1 - installation Windows
3   - included files
4   - description of scripts
5   - goles for later releases

----------- 0 - introduction --------------
This is the third release of scripts for plotting mpms/ppms, 4Circle, reflectometer, treff and in12 data,
For a description of the features see chapter 3. 
If you would like some new features, found any bugs or would like to have additional file-types
supported by the script feel free to contact me.

----- 1 - changes since version 0.5 -------
- added support for treff data and image files
- added support for in12 data files
- changed module structure introducing config, read_data and sessions packages
- added fitting dialog
- python setup

----- 1.1 - changes from version 0.4 to 0.5 -------
- combined all scripts into one executable with many changes in the backend for more
  flexibility using more object orientation
- using temporal folder depending on the process ID so you can use more then one instance
  of the script without interfering with an other.
- now running under Windows
- many bugs fixed in scripts and gui
- improvements of the GUI, e.g. open files from within the GUI, add any gnuplot command
  and save gnuplot settings in profiles
- some code cleanup and comments
- module insertion into GUI dependent on the run script
- including and excluding filtering of the datasets by any column
- interactive reflectometer fitting, using the fit.f90 back end by E. Kentzinger (modified)
- a lot more of minor improvements


----------- 2 - installation --------------
fit-script:
  Now the fit script is compiled by the plot script itself, no installation need anymore.

plotting-scripts:
Put plotting_v0.5.tar.gz in the destination folder, in the folder type

  tar -xvvzf fit-script.tar.gz
  ./install
  
  this creates symbolic links for plot.py, plot_4circle_data, plot_reflectometer_data, 
  plot_SQUID_data (scripts) and p4d,prd,pld (gui mode) in /usr/bin .
  !! if you don't have administrator priviliges, use ./install {PATH} , with a directory {PATH}
     inside one of your system path folders. (type "print $PATH" to find out where to look)

To remove the script is just as easy, go to the installation folder and type
  ./uninstall
  this will remove the symbolic links. If you installed to another path, use uninstall with
  the same parameters as the install script earlier.

!!! If you have the previous version installed, you have !!!
!!! to uninstall it first, as the links have changed.    !!!

For full functionality you will need the gfortran compiler(fit.f90), gnuplot.py(speedup) and pygtk(GUI) packages.

----------- 2.1 - installation --------------
Installation in Windows is not that easy, first of all because gnuplot is not as common 
   as it is in 

File: Daniel.UXD
; C:\DIFFDAT1\Schumacher\BaTiO3_auf_SrTiO3\SB081024b_ref.raw(Diffrac Plus V1.01 file) converted by XCH V1.0
_FILEVERSION=2
_SAMPLE='BaTiO3 auf SrTiO3 SB081013a'
_SITE='J lich / Germany'
_USER='Administrator'
_SAMPLE_CHANGER_CODE=0
_ATTACHMENTS_CODE=0
_GONIOMETER_RADIUS=217.5
_FIXED_DIVSLIT=0.150000
_FIXED_SAMPLESLIT=1.000000
_FIXED_DETSLIT=1.000000
_MONOCHROMATOR=0
; None
_THIN_FILM='N'
_BETA_FILTER='N'
_FIXED_ANTISLIT=0.150000
_ANALYZER_CODE=0
; None
_DATEMEASURED='26-Feb-2009 09:41:55'
_WL_UNIT='A'
_WL1=1.540600
_WL2=1.544390
_WL3=1.392220
_WLRATIO=0.500000
_ANODE='Cu'
; (Data for Range number 1)
_DRIVE='THETA'
_STEPTIME=240
_STEPSIZE=0.010000
_STEPMODE='S'
_START=0.000000
_THETA=0.000000
_2THETA=0.000000
_KHI=0.000000
_PHI=0.000000
_X=0.000000
_Y=0.000000
_Z=0.000000
_DIVERGENCE=0.000000
_ANTISCATTER=0.000000
_DETECTOR=1
; S.C.
_HV=675.575
_GAIN=80
_LLD=0.700531
_ULD=1.906721
_DETECTORSLIT='unkn'
_AUX1=-0.890940
_AUX2=0.000000
_AUX3=9.000000
_TIMESTARTED=1.23564e+09
_TEMP_RATE=-1.000000
_TEMP_DELAY=-1.000000
_KV=40
_MA=40
_RANGE_WL=1.540600
_3DPLANE=0
_2THETACOUNTS
   0.0000 835258982
   0.0300 110183001
   0.0600 107462000
   0.0900  58464700
   0.1200  71185400
   0.1500  86679400
   0.1800 101303000
   0.2100 114140000
   0.2400 124523000
   0.2700 129854000
   0.3000 119459000
   0.3300  75698704
   0.3600  46040600
   0.3900  32565300
   0.4200  22307100
   0.4500  14924600
   0.4800   9763860
   0.5100   6306910
   0.5400   4107200
   0.5700   2780050
   0.6000   2032520
   0.6300   1625830
   0.6600   1398150
   0.6900   1250370
   0.7200   1123580
   0.7500    993048
   0.7800    856197
   0.8100    709955
   0.8400    571427
   0.8700    445714
   0.9000    340023
   0.9300    254457
   0.9600    191642
   0.9900    147737
   1.0200    117182
   1.0500     98068
   1.0800     85642
   1.1100     76698
   1.1400     69111
   1.1700     62298
   1.2000     54551
   1.2300     47516
   1.2600     40227
   1.2900     33219
   1.3200     27775
   1.3500     22343
   1.3800     18653
   1.4100     14947
   1.4400     12447
   1.4700     10889
   1.5000     10261
   1.5300      9497
   1.5600      9999
   1.5900     10344
   1.6200     10850
   1.6500     11579
   1.6800     12277
   1.7100     12634
   1.7400     12987
   1.7700     12795
   1.8000     12420
   1.8300     11740
   1.8600     10782
   1.8900      9979
   1.9200      9431
   1.9500      8574
   1.9800      8223
   2.0100      8184
   2.0400      8089
   2.0700      7955
   2.1000      7999
   2.1300      8369
   2.1600      8503
   2.1900      8321
   2.2200      8249
   2.2500      7997
   2.2800      7524
   2.3100      6831
   2.3400      6345
   2.3700      5734
   2.4000      5012
   2.4300      4670
   2.4600      4227
   2.4900      3980
   2.5200      3836
   2.5500      3728
   2.5800      3632
   2.6100      3577
   2.6400      3634
   2.6700      3469
   2.7000      3264
   2.7300      3121
   2.7600      2878
   2.7900      2633
   2.8200      2362
   2.8500      2077
   2.8800      1898
   2.9100      1683
   2.9400      1639
   2.9700      1459
   3.0000      1516
   3.0300      1448
   3.0600      1441
   3.0900      1331
   3.1200      1335
   3.1500      1466
   3.1800      1377
   3.2100      1355
   3.2400      1289
   3.2700      1278
   3.3000      1231
   3.3300      1160
   3.3600      1126
   3.3900      1054
   3.4200       992
   3.4500       930
   3.4800       993
   3.5100       956
   3.5400       896
   3.5700       994
   3.6000       987
   3.6300       976
   3.6600      1023
   3.6900      1016
   3.7200      1045
   3.7500       943
   3.7800       994
   3.8100       926
   3.8400       866
   3.8700       933
   3.9000       804
   3.9300       867
   3.9600       814
   3.9900       762
   4.0200       782
   4.0500       719
   4.0800       780
   4.1100       761
   4.1400       818
   4.1700       833
   4.2000       755
   4.2300       738
   4.2600       775
   4.2900       739
   4.3200       714
   4.3500       713
   4.3800       687
   4.4100       651
   4.4400       646
   4.4700       614
   4.5000       653
   4.5300       633
   4.5600       599
   4.5900       613
   4.6200       617
   4.6500       642
   4.6800       609
   4.7100       592
   4.7400       625
   4.7700       641
   4.8000       576
   4.8300       608
   4.8600       582
   4.8900       562
   4.9200       580
   4.9500       496
   4.9800       555
   5.0100       574
   5.0400       548
   5.0700       543
   5.1000       524
   5.1300       505
   5.1600       567
   5.1900       546
   5.2200       517
   5.2500       503
   5.2800       545
   5.3100       552
   5.3400       519
   5.3700       533
   5.4000       501
   5.4300       490
   5.4600       499
   5.4900       473
   5.5200       461
   5.5500       484
   5.5800       497
   5.6100       489
   5.6400       510
   5.6700       486
   5.7000       465
   5.7300       459
   5.7600       515
   5.7900       497
   5.8200       492
   5.8500       456
   5.8800       468
   5.9100       447
   5.9400       480
   5.9700       445
   6.0000       460

File: P043_136C.uxd
; (content of file C:\DIFFDAT1\Josten\P043-temp\P043_136C.raw)
_FILEVERSION = 2
_SAMPLE = P043
_+SAMPLE =
_SITE = "Jülich / Germany"
_USER = Administrator
_GONIOMETER_CODE = 21
; Goniometer : D8 theta/theta, stage : Unknown
_SAMPLE_CHANGER_CODE = 0
_ATTACHMENTS_CODE = 0
_GONIOMETER_RADIUS = 217.5
_FIXED_DIVSLIT = 0.15
_FIXED_SAMPLESLIT = 1
_FIXED_DETSLIT = 1
_MONOCHROMATOR = 0
; Incident beam monochromator : None
_THIN_FILM = N
_BETA_FILTER = N
_FIXED_ANTISLIT = 0.15
_ANALYZER_CODE = 0
; Received beam analyzer : None
_WL_UNIT = A
_WL1 = 1.5406
_WL2 = 1.54439
_WL3 = 1.39222
_WLRATIO = 0.5
_ANODE = Cu

; Data for range 1
_DRIVE = COUPLED
_STEPTIME = 1.5
_STEPSIZE = 0.01
_STEPMODE = C
_START = 0.14
_THETA = 0.07
_2THETA = 0.14
_KHI = 0
_PHI = 0
_X = 0
_Y = 0
_Z = 0
_DETECTOR = 1
; Detector type : Scintillation counter
_HV = 675.6
_GAIN = 80
_LLD = 0.7005
_ULD = 1.907
_DETECTORSLIT = out
_AUX1 = -0.52106
_AUX2 = 0
_AUX3 = 0
_TIMESTARTED = 2
_TEMP_RATE = -1
_TEMP_DELAY = -1
_KV = 40
_MA = 40
_RANGE_WL = 1.5406
_3DPLANE = 0
_V4_COUNTERS_MASK = 1
_V4_DRIVES_MASK = 0
_V4_ENCODERS_MASK = 0
_COUNTS = 1
; Cnt1_D1
   113247
    74550
    54953
    43661
    36323
    30799
    26151
    21870
    18928
    16766
    16001
    15544
    15608
    15681
    14976
    13991
    11908
    10221
     8134
     6813
     5738
     4590
     3777
     3011
     2643
     2278
     1981
     1778
     1727
     1577
     1407
     1404
     1337
     1419
     1584
     1986
     3027
     6391
    12732
    14643
    11063
     7719
     5465
     3342
     1861
     1156
      780
      500
      345
      269
      207
      180
      155
      117
      131
      103
       98
       89
       90
       68
       79
       72
       60
       55
       54
       59
       46
       51
       52
       58
       61
       61
       43
       52
       43
       47
       40
       46
       47
       62
      116
      271
      491
      482
      360
      217
      149
       96
       52
       29
       29
       16
       24
       10
       10
       23
        8
       15
       13
        9
       15
       10
       10
       13
        6
       11
       10
        5
       12
        9
        6
        6
        3
        6
       12
       13
        7
        8
        7
       10
        4
        9
        8
        9
        7
       14
       18
       30
       16
       16
       20
        7
        6
        3
        4
        6
        4
        3
        3
        4
        5
        4
        5
        7
        2
        2
        3
        3
        3
        3
        3
        3
        1
        2
        4
        5
        1
        4
        2
        3
        1
        3
        2
        2
        1
        4
        1
        3
        2
        1
        4
        2
        3
        4
        0
        1
        3
        2
        3
        2
        2
        2
        2
        1
        0
        3
        2
        2
        1
        4
        1
        1
        0
        1

File: reflectometer.UXD
; C:\DIFFDAT1\glavic\PLD\8214\TbMnO_3-2Th.raw(Diffrac Plus V1.01 file) converted by XCH V1.0
_FILEVERSION=2
_SAMPLE='TbMnO3 on YAlO3'
_SITE='J lich / Germany'
_USER='Administrator'
_SAMPLE_CHANGER_CODE=0
_ATTACHMENTS_CODE=0
_GONIOMETER_RADIUS=217.5
_FIXED_DIVSLIT=0.150000
_FIXED_SAMPLESLIT=1.000000
_FIXED_DETSLIT=1.000000
_MONOCHROMATOR=0
; None
_THIN_FILM='N'
_BETA_FILTER='N'
_FIXED_ANTISLIT=0.150000
_ANALYZER_CODE=0
; None
_DATEMEASURED='12-Nov-2008 16:29:07'
_WL_UNIT='A'
_WL1=1.540600
_WL2=1.544390
_WL3=1.392220
_WLRATIO=0.500000
_ANODE='Cu'
; (Data for Range number 1)
_DRIVE='THETA'
_STEPTIME=6.504550
_STEPSIZE=0.005000
_STEPMODE='C'
_START=0.000000
_THETA=0.000000
_2THETA=0.000000
_KHI=0.000000
_PHI=0.000000
_X=0.000000
_Y=0.000000
_Z=0.000000
_DIVERGENCE=0.000000
_ANTISCATTER=0.000000
_DETECTOR=1
; S.C.
_HV=675.575
_GAIN=80
_LLD=0.700531
_ULD=1.906721
_DETECTORSLIT='unkn'
_AUX1=-0.517280
_AUX2=-0.711940
_AUX3=0.058500
_TIMESTARTED=1.2265e+09
_TEMP_RATE=-1.000000
_TEMP_DELAY=-1.000000
_KV=40
_MA=40
_RANGE_WL=1.540600
_3DPLANE=0
_2THETACOUNTS
   0.0000   9872560
   0.0150   2894010
   0.0300   1065260
   0.0450   1434060
   0.0600   1846780
   0.0750   2282550
   0.0900   2700050
   0.1050   3097320
   0.1200   3481440
   0.1350   3858090
   0.1500   4211590
   0.1650   4540610
   0.1800   4864480
   0.1950   5142990
   0.2100   5410670
   0.2250   5650860
   0.2400   5856870
   0.2550   6019530
   0.2700   6137200
   0.2850   6179190
   0.3000   6142590
   0.3150   5964170
   0.3300   5559890
   0.3450   4827060
   0.3600   3775840
   0.3750   2721720
   0.3900   1918300
   0.4050   1422890
   0.4200   1103410
   0.4350    890633
   0.4500    730047
   0.4650    621641
   0.4800    502425
   0.4950    413037
   0.5100    367388
   0.5250    318354
   0.5400    260217
   0.5550    221694
   0.5700    204590
   0.5850    181719
   0.6000    149697
   0.6150    126849
   0.6300    119198
   0.6450    109931
   0.6600     92064
   0.6750     77058
   0.6900     70357
   0.7050     68316
   0.7200     60739
   0.7350     50015
   0.7500     42881
   0.7650     41308
   0.7800     40066
   0.7950     34390
   0.8100     28331
   0.8250     25117
   0.8400     24878
   0.8550     24068
   0.8700     20317
   0.8850     16788
   0.9000     15358
   0.9150     15374
   0.9300     14669
   0.9450     12527
   0.9600     10273
   0.9750      9434
   0.9900      9739
   1.0050      9317
   1.0200      7856
   1.0350      6468
   1.0500      6109
   1.0650      6418
   1.0800      6098
   1.0950      5062
   1.1100      4162
   1.1250      3990
   1.1400      4211
   1.1550      4064
   1.1700      3392
   1.1850      2788
   1.2000      2655
   1.2150      2738
   1.2300      2752
   1.2450      2322
   1.2600      1913
   1.2750      1758
   1.2900      1864
   1.3050      1913
   1.3200      1640
   1.3350      1308
   1.3500      1175
   1.3650      1298
   1.3800      1324
   1.3950      1190
   1.4100       879
   1.4250       864
   1.4400       885
   1.4550       933
   1.4700       795
   1.4850       633
   1.5000       586
   1.5150       675
   1.5300       712
   1.5450       595
   1.5600       483
   1.5750       428
   1.5900       471
   1.6050       488
   1.6200       474
   1.6350       383
   1.6500       354
   1.6650       333
   1.6800       364
   1.6950       343
   1.7100       288
   1.7250       272
   1.7400       235
   1.7550       288
   1.7700       276
   1.7850       239
   1.8000       183
   1.8150       217
   1.8300       200
   1.8450       217
   1.8600       192
   1.8750       166
   1.8900       162
   1.9050       173
   1.9200       158
   1.9350       141
   1.9500       145
   1.9650       120
   1.9800       146
   1.9950       116
   2.0100       124
   2.0250        96
   2.0400       107
   2.0550       118
   2.0700       119
   2.0850       105
   2.1000        95
   2.1150        89
   2.1300        71
   2.1450        89
   2.1600        92
   2.1750        88
   2.1900        73
   2.2050        78
   2.2200        78
   2.2350        77
   2.2500        78
   2.2650        66
   2.2800        62
   2.2950        76
   2.3100        83
   2.3250        52
   2.3400        49
   2.3550        62
   2.3700        58
   2.3850        59
   2.4000        58
   2.4150        47
   2.4300        46
   2.4450        22
   2.4600        41
   2.4750        53
   2.4900        38
   2.5050        38
   2.5200        37
   2.5350        47
   2.5500        48
   2.5650        42
   2.5800        42
   2.5950        39
   2.6100        39
   2.6250        28
   2.6400        29
   2.6550        25
   2.6700        26
   2.6850        32
   2.7000        37
   2.7150        36
   2.7300        24
   2.7450        35
   2.7600        35
   2.7750        27
   2.7900        38
   2.8050        26
   2.8200        16
   2.8350        28
   2.8500        26
   2.8650        30
   2.8800        22
   2.8950        20
   2.9100        20
   2.9250        22
   2.9400        19
   2.9550        19
   2.9700        16
   2.9850        13
   3.0000        23
   3.0150        11
   3.0300        17
   3.0450        12
   3.0600        24
   3.0750        14
   3.0900        17
   3.1050        25
   3.1200        17
   3.1350        12
   3.1500        20
   3.1650        13
   3.1800        18
   3.1950        16
   3.2100        20
   3.2250        15
   3.2400        10
   3.2550        16
   3.2700        12
   3.2850         7
   3.3000        19
   3.3150        16
   3.3300         9
   3.3450        10
   3.3600         6
   3.3750        18
   3.3900         6
   3.4050        10
   3.4200        13
   3.4350         9
   3.4500         9
   3.4650         4
   3.4800        17
   3.4950         9
   3.5100        12
   3.5250         8
   3.5400         5
   3.5550         8
   3.5700         8
   3.5850         7
   3.6000         9
   3.6150         6
   3.6300         5
   3.6450        11
   3.6600         5
   3.6750         6
   3.6900         7
   3.7050         7
   3.7200         9
   3.7350         5
   3.7500         3
   3.7650        11
   3.7800         9
   3.7950         4
   3.8100         2
   3.8250        11
   3.8400         9
   3.8550         9
   3.8700         7
   3.8850        11
   3.9000         9
   3.9150         6
   3.9300         5
   3.9450         8
   3.9600         5
   3.9750        13
   3.9900         6
   4.0000         7